{
  "resourceType": "Bundle",
  "id": "bundle-document-example",
  "identifier": {
    "system": "https://www.hospital.org.tw/bundle-identifier",
    "value": "bundle-doc-001"
  },
  "type": "document",
  "timestamp": "2025-08-30T13:58:51.949Z",
  "entry": [
    {
      "fullUrl": "https://twcore.mohw.gov.tw/ig/twcore/Composition/composition-vitalsign-document",
      "resource": {
        "resourceType": "Composition",
        "id": "composition-vitalsign-document",
        "meta": {
          "profile": [
            "https://twcore.mohw.gov.tw/ig/twcore/StructureDefinition/Composition-twcore"
          ]
        },
        "status": "final",
        "type": {
          "coding": [
            {
              "system": "http://loinc.org",
              "code": "11503-0",
              "display": "Medical records"
            }
          ]
        },
        "category": [
          {
            "coding": [
              {
                "system": "http://loinc.org",
                "code": "47039-3",
                "display": "Hospital Admission history and physical note"
              }
            ]
          }
        ],
        "subject": {
          "reference": "Patient/patient-0001"
        },
        "date": "2025-08-30T13:58:51.949Z",
        "author": [
          {
            "reference": "Practitioner/practitioner-example"
          }
        ],
        "title": "生命徵象記錄文件",
        "confidentiality": "N",
        "section": [
          {
            "title": "生命徵象",
            "code": {
              "coding": [
                {
                  "system": "http://loinc.org",
                  "code": "8716-3",
                  "display": "Vital signs note"
                }
              ]
            },
            "entry": [
              {
                "reference": "Observation/obs-bloodpressure-0001-1"
              },
              {
                "reference": "Observation/obs-bloodpressure-0001-2"
              },
              {
                "reference": "Observation/obs-bloodpressure-0001-3"
              }
            ]
          }
        ]
      }
    },
    {
      "fullUrl": "https://twcore.mohw.gov.tw/ig/twcore/Patient/patient-0001",
      "resource": {
        "resourceType": "Patient",
        "id": "patient-0001",
        "meta": {
          "profile": [
            "https://twcore.mohw.gov.tw/ig/twcore/StructureDefinition/Patient-twcore"
          ]
        },
        "identifier": [
          {
            "type": {
              "coding": [
                {
                  "system": "http://terminology.hl7.org/CodeSystem/v2-0203",
                  "code": "MR"
                }
              ]
            },
            "system": "https://www.hospital.org.tw",
            "value": "0001"
          }
        ],
        "active": true,
        "name": [
          {
            "use": "official",
            "text": "Len",
            "family": "Len"
          }
        ],
        "gender": "unknown",
        "birthDate": "1990-01-01"
      }
    },
    {
      "fullUrl": "https://twcore.mohw.gov.tw/ig/twcore/Practitioner/practitioner-example",
      "resource": {
        "resourceType": "Practitioner",
        "id": "practitioner-example",
        "meta": {
          "profile": [
            "https://twcore.mohw.gov.tw/ig/twcore/StructureDefinition/Practitioner-twcore"
          ]
        },
        "identifier": [
          {
            "type": {
              "coding": [
                {
                  "system": "http://terminology.hl7.org/CodeSystem/v2-0203",
                  "code": "MD"
                }
              ]
            },
            "system": "https://www.hospital.org.tw",
            "value": "DOC001"
          }
        ],
        "active": true,
        "name": [
          {
            "use": "official",
            "text": "範例醫師",
            "family": "範例",
            "given": ["醫師"]
          }
        ],
        "gender": "unknown"
      }
    },
    {
      "fullUrl": "https://twcore.mohw.gov.tw/ig/twcore/Observation/obs-bloodpressure-0001-1",
      "resource": {
        "resourceType": "Observation",
        "id": "obs-bloodpressure-0001-1",
        "meta": {
          "profile": [
            "https://twcore.mohw.gov.tw/ig/twcore/StructureDefinition/Observation-bloodPressure-twcore"
          ]
        },
        "status": "final",
        "category": [
          {
            "coding": [
              {
                "system": "http://terminology.hl7.org/CodeSystem/observation-category",
                "code": "vital-signs",
                "display": "Vital Signs"
              }
            ]
          }
        ],
        "code": {
          "coding": [
            {
              "system": "http://loinc.org",
              "code": "85354-9",
              "display": "Blood pressure panel with all children optional"
            }
          ]
        },
        "subject": {
          "reference": "Patient/patient-0001"
        },
        "performer": [
          {
            "reference": "Practitioner/practitioner-example"
          }
        ],
        "effectiveDateTime": "2025-08-28T00:00:00Z",
        "component": [
          {
            "code": {
              "coding": [
                {
                  "system": "http://loinc.org",
                  "code": "8480-6",
                  "display": "Systolic blood pressure"
                }
              ]
            },
            "valueQuantity": {
              "value": 120,
              "unit": "mmHg",
              "system": "http://unitsofmeasure.org",
              "code": "mm[Hg]"
            }
          },
          {
            "code": {
              "coding": [
                {
                  "system": "http://loinc.org",
                  "code": "8462-4",
                  "display": "Diastolic blood pressure"
                }
              ]
            },
            "valueQuantity": {
              "value": 80,
              "unit": "mmHg",
              "system": "http://unitsofmeasure.org",
              "code": "mm[Hg]"
            }
          }
        ]
      }
    },
    {
      "fullUrl": "https://twcore.mohw.gov.tw/ig/twcore/Observation/obs-bloodpressure-0001-2",
      "resource": {
        "resourceType": "Observation",
        "id": "obs-bloodpressure-0001-2",
        "meta": {
          "profile": [
            "https://twcore.mohw.gov.tw/ig/twcore/StructureDefinition/Observation-bloodPressure-twcore"
          ]
        },
        "status": "final",
        "category": [
          {
            "coding": [
              {
                "system": "http://terminology.hl7.org/CodeSystem/observation-category",
                "code": "vital-signs",
                "display": "Vital Signs"
              }
            ]
          }
        ],
        "code": {
          "coding": [
            {
              "system": "http://loinc.org",
              "code": "85354-9",
              "display": "Blood pressure panel with all children optional"
            }
          ]
        },
        "subject": {
          "reference": "Patient/patient-0001"
        },
        "performer": [
          {
            "reference": "Practitioner/practitioner-example"
          }
        ],
        "effectiveDateTime": "2025-08-28T01:00:00Z",
        "component": [
          {
            "code": {
              "coding": [
                {
                  "system": "http://loinc.org",
                  "code": "8480-6",
                  "display": "Systolic blood pressure"
                }
              ]
            },
            "valueQuantity": {
              "value": 130,
              "unit": "mmHg",
              "system": "http://unitsofmeasure.org",
              "code": "mm[Hg]"
            }
          },
          {
            "code": {
              "coding": [
                {
                  "system": "http://loinc.org",
                  "code": "8462-4",
                  "display": "Diastolic blood pressure"
                }
              ]
            },
            "valueQuantity": {
              "value": 85,
              "unit": "mmHg",
              "system": "http://unitsofmeasure.org",
              "code": "mm[Hg]"
            }
          }
        ]
      }
    },
    {
      "fullUrl": "https://twcore.mohw.gov.tw/ig/twcore/Observation/obs-bloodpressure-0001-3",
      "resource": {
        "resourceType": "Observation",
        "id": "obs-bloodpressure-0001-3",
        "meta": {
          "profile": [
            "https://twcore.mohw.gov.tw/ig/twcore/StructureDefinition/Observation-bloodPressure-twcore"
          ]
        },
        "status": "final",
        "category": [
          {
            "coding": [
              {
                "system": "http://terminology.hl7.org/CodeSystem/observation-category",
                "code": "vital-signs",
                "display": "Vital Signs"
              }
            ]
          }
        ],
        "code": {
          "coding": [
            {
              "system": "http://loinc.org",
              "code": "85354-9",
              "display": "Blood pressure panel with all children optional"
            }
          ]
        },
        "subject": {
          "reference": "Patient/patient-0001"
        },
        "performer": [
          {
            "reference": "Practitioner/practitioner-example"
          }
        ],
        "effectiveDateTime": "2025-08-28T02:00:00Z",
        "component": [
          {
            "code": {
              "coding": [
                {
                  "system": "http://loinc.org",
                  "code": "8480-6",
                  "display": "Systolic blood pressure"
                }
              ]
            },
            "valueQuantity": {
              "value": 120,
              "unit": "mmHg",
              "system": "http://unitsofmeasure.org",
              "code": "mm[Hg]"
            }
          },
          {
            "code": {
              "coding": [
                {
                  "system": "http://loinc.org",
                  "code": "8462-4",
                  "display": "Diastolic blood pressure"
                }
              ]
            },
            "valueQuantity": {
              "value": 83,
              "unit": "mmHg",
              "system": "http://unitsofmeasure.org",
              "code": "mm[Hg]"
            }
          }
        ]
      }
    }
  ]
}
